﻿chooserow,ParID,pre_instru_resp_2.keys,pre_instru_resp_2.rt,pre_instru_resp_3.keys,pre_instru_resp_3.rt,pre_instru_resp_9.keys,pre_instru_resp_9.rt,pre_instru_resp_8.keys,pre_instru_resp_8.rt,pre_instru_resp_4.keys,pre_instru_resp_4.rt,pre_instru_resp_5.keys,pre_instru_resp_5.rt,pre_instru_resp_6.keys,pre_instru_resp_6.rt,key_resp_3.keys,key_resp_3.rt,key_resp_4.keys,key_resp_4.rt,key_resp_5.keys,key_resp_5.rt,key_resp_6.keys,key_resp_6.rt,key_resp_7.keys,key_resp_7.rt,trials_2.thisRepN,trials_2.thisTrialN,trials_2.thisN,trials_2.thisIndex,trials_2.ran,participant,session,date,expName,psychopyVersion,OS,frameRate,pre_instru_resp.keys,pre_instru_resp.rt,clicked,judge_2.x,judge_2.y,judge_2.leftButton,judge_2.midButton,judge_2.rightButton,judge_2.clicked_name,trials.thisRepN,trials.thisTrialN,trials.thisN,trials.thisIndex,trials.ran,prac_answer,prac_dot_sti,dotlefttext,dotrighttext,prac_acc,judge.x,judge.y,judge.leftButton,judge.midButton,judge.rightButton,judge.clicked_name,clicked_guilt,slider_guilt.response,slider_guilt.rt,key_guilt.keys,key_guilt.rt,share_slider.response,share_slider.rt,key_share.keys,slider_apology.response,slider_apology.rt,key_apology.keys,slider_hide.response,slider_hide.rt,slider_forgiveness.response,slider_forgiveness.rt,key_forgiveness.keys,slider_mad.response,slider_mad.rt,trialseq.thisRepN,trialseq.thisTrialN,trialseq.thisN,trialseq.thisIndex,trialseq.ran,type_trial,stipic,DV,picture,answer,number,key_apology.rt,key_share.rt,key_forgiveness.rt,slider_friendly.response,slider_friendly.rt,slider_trustworthy.response,slider_trustworthy.rt,slider_competence.response,slider_competence.rt,slider_critical.response,slider_critical.rt,key_resp.keys,key_resp.rt
"[146,77,70,13,36,90,58,186,60,182,91,117,141,103,198,136,179,79,11,86,71,101,128,194,49,119,112,125,135,177,162,145,97,72,164,172,53,150,35,167,183,124]",Kaoru,space,1.5585,space,2.2502,space,15.996,space,20.3754,space,81.2646,space,13.0809,space,4.5311,4,3.8246,1,6.078,3,4.864,2,5.2627,2,3.4536,0,0,0,0,1,Kaoru,1,2024-06-01_01h12.12.802,interaction task chi,2021.2.3,Win32,60.97560976,,,,,,,,,,,,,,,,,,,,,,,,,,,,,,,,,,,,,,,,,,,,,,,,,,,,,,,,,,,,,,,,,,,
,,,,space,1.233,space,5.7573,space,0.707,space,0.4004,space,1.6207,space,0.6675,3,2.1193,1,3.3658,3,1.8485,2,1.038,2,0.9359,1,0,1,0,1,Kaoru,1,2024-06-01_01h12.12.802,interaction task chi,2021.2.3,Win32,60.97560976,,,,,,,,,,,,,,,,,,,,,,,,,,,,,,,,,,,,,,,,,,,,,,,,,,,,,,,,,,,,,,,,,,,
,,,,,,,,,,,,,,,,,,,,,,,,,,,,,,,Kaoru,1,2024-06-01_01h12.12.802,interaction task chi,2021.2.3,Win32,60.97560976,space,4.7353,"[""RightButton_2""]",0.317708397,-0.327777778,1,0,0,RightButton_2,0,0,0,2,1,LeftButton_2,11dot1.png,大于,小于,,,,,,,,,,,,,,,,,,,,,,,,,,,,,,,,,,,,,,,,,,,,,,,,,
,,,,,,,,,,,,,,,,,,,,,,,,,,,,,,,Kaoru,1,2024-06-01_01h12.12.802,interaction task chi,2021.2.3,Win32,60.97560976,,,"[""RightButton_2""]",0.275,-0.316666667,1,0,0,RightButton_2,0,1,1,0,1,RightButton_2,11dot1.png,小于,大于,,,,,,,,,,,,,,,,,,,,,,,,,,,,,,,,,,,,,,,,,,,,,,,,,
,,,,,,,,,,,,,,,,,,,,,,,,,,,,,,,Kaoru,1,2024-06-01_01h12.12.802,interaction task chi,2021.2.3,Win32,60.97560976,,,"[""LeftButton_2""]",-0.283333302,-0.312963019,1,0,0,LeftButton_2,0,2,2,1,1,LeftButton_2,9dot1.png,小于,大于,,,,,,,,,,,,,,,,,,,,,,,,,,,,,,,,,,,,,,,,,,,,,,,,,
,,,,,,,,,,,,,,,,,,,,,,,,,,,,,,,Kaoru,1,2024-06-01_01h12.12.802,interaction task chi,2021.2.3,Win32,60.97560976,,,,,,,,,,,,,,,,,大于,小于,0.4,0.280208397,-0.505555556,1,0,0,RightButton,"[""RightButton""]",100,7.517,space,3.7545,,,,,,,,,,,,,,0,0,0,0,1,3,only_sub_wrong.png,0,RandomDot38.png,No answer,21,,,,,,,,,,,,,
,,,,,,,,,,,,,,,,,,,,,,,,,,,,,,,Kaoru,1,2024-06-01_01h12.12.802,interaction task chi,2021.2.3,Win32,60.97560976,,,,,,,,,,,,,,,,,大于,小于,,-0.290625,-0.524074131,1,0,0,LeftButton,"[""LeftButton""]",,,,,,,,50,9.2385,space,10,8.3083,,,,,,0,1,1,1,1,1,both_wrong.png,2,RandomDot13.png,No answer,21,1.1861,,,,,,,,,,,,
,,,,,,,,,,,,,,,,,,,,,,,,,,,,,,,Kaoru,1,2024-06-01_01h12.12.802,interaction task chi,2021.2.3,Win32,60.97560976,,,,,,,,,,,,,,,,,小于,大于,,0.301041698,-0.485185242,1,0,0,RightButton,"[""RightButton""]",,,,,5,7.6257,space,,,,,,,,,,,0,2,2,2,1,1,both_wrong.png,1,RandomDot29.png,No answer,19,,1.3967,,,,,,,,,,,
,,,,,,,,,,,,,,,,,,,,,,,,,,,,,,,Kaoru,1,2024-06-01_01h12.12.802,interaction task chi,2021.2.3,Win32,60.97560976,,,,,,,,,,,,,,,,,大于,小于,,0.298958397,-0.503703817,1,0,0,RightButton,"[""RightButton""]",,,,,,,,,,,,,,,,,,0,3,3,3,1,0,both_right.png,1,RandomDot28.png,No answer,21,,,,,,,,,,,,,
,,,,,,,,,,,,,,,,,,,,,,,,,,,,,,,Kaoru,1,2024-06-01_01h12.12.802,interaction task chi,2021.2.3,Win32,60.97560976,,,,,,,,,,,,,,,,,大于,小于,,0.315625,-0.503703817,1,0,0,RightButton,"[""RightButton""]",,,,,,,,,,,,,,,,,,0,4,4,4,1,0,both_right.png,3,RandomDot3.png,No answer,20,,,,,,,,,,,,,
,,,,,,,,,,,,,,,,,,,,,,,,,,,,,,,Kaoru,1,2024-06-01_01h12.12.802,interaction task chi,2021.2.3,Win32,60.97560976,,,,,,,,,,,,,,,,,小于,大于,,0.322916698,-0.514814928,1,0,0,RightButton,"[""RightButton""]",,,,,,,,,,,,,49.0530303,6.6994,space,49.26347444,8.3238,0,5,5,5,1,1,both_wrong.png,3,RandomDot29.png,No answer,19,,,1.1696,,,,,,,,,,
,,,,,,,,,,,,,,,,,,,,,,,,,,,,,,,Kaoru,1,2024-06-01_01h12.12.802,interaction task chi,2021.2.3,Win32,60.97560976,,,,,,,,,,,,,,,,,小于,大于,,-0.2625,-0.509259372,1,0,0,LeftButton,"[""LeftButton""]",50,3.1032,space,1.2076,,,,,,,,,,,,,,0,6,6,6,1,1,both_wrong.png,0,RandomDot34.png,No answer,19,,,,,,,,,,,,,
,,,,,,,,,,,,,,,,,,,,,,,,,,,,,,,Kaoru,1,2024-06-01_01h12.12.802,interaction task chi,2021.2.3,Win32,60.97560976,,,,,,,,,,,,,,,,,小于,大于,,-0.280208302,-0.511111111,1,0,0,LeftButton,"[""LeftButton""]",,,,,,,,,,,,,50,3.6299,space,49.579131,4.8291,0,7,7,7,1,3,only_sub_wrong.png,3,RandomDot9.png,No answer,19,,,1.1167,,,,,,,,,,
,,,,,,,,,,,,,,,,,,,,,,,,,,,,,,,Kaoru,1,2024-06-01_01h12.12.802,interaction task chi,2021.2.3,Win32,60.97560976,,,,,,,,,,,,,,,,,大于,小于,,0.279166698,-0.501851908,1,0,0,RightButton,"[""RightButton""]",,,,,2.479166985,3.5632,space,,,,,,,,,,,0,8,8,8,1,1,both_wrong.png,1,RandomDot13.png,No answer,19,,1.1432,,,,,,,,,,,
,,,,,,,,,,,,,,,,,,,,,,,,,,,,,,,Kaoru,1,2024-06-01_01h12.12.802,interaction task chi,2021.2.3,Win32,60.97560976,,,,,,,,,,,,,,,,,大于,小于,,-0.269791651,-0.498148261,1,0,0,LeftButton,"[""LeftButton""]",,,,,,,,,,,,,49.89478757,2.2004,space,49.7895655,3.2591,0,9,9,9,1,3,only_sub_wrong.png,3,RandomDot8.png,No answer,21,,,0.7017,,,,,,,,,,
,,,,,,,,,,,,,,,,,,,,,,,,,,,,,,,Kaoru,1,2024-06-01_01h12.12.802,interaction task chi,2021.2.3,Win32,60.97560976,,,,,,,,,,,,,,,,,小于,大于,,-0.285416651,-0.481481595,1,0,0,LeftButton,"[""LeftButton""]",,,,,,,,,,,,,70.30724227,3.432,space,28.95623217,5.4563,0,10,10,10,1,1,both_wrong.png,3,RandomDot23.png,No answer,20,,,1.0065,,,,,,,,,,
,,,,,,,,,,,,,,,,,,,,,,,,,,,,,,,Kaoru,1,2024-06-01_01h12.12.802,interaction task chi,2021.2.3,Win32,60.97560976,,,,,,,,,,,,,,,,,小于,大于,,0.292708397,-0.5,1,0,0,RightButton,"[""RightButton""]",,,,,0.026041746,2.8373,space,,,,,,,,,,,0,11,11,11,1,2,only_sub_right.png,1,RandomDot27.png,No answer,21,,1.3113,,,,,,,,,,,
,,,,,,,,,,,,,,,,,,,,,,,,,,,,,,,Kaoru,1,2024-06-01_01h12.12.802,interaction task chi,2021.2.3,Win32,60.97560976,,,,,,,,,,,,,,,,,小于,大于,,0.290625,-0.509259372,1,0,0,RightButton,"[""RightButton""]",,,,,,,,,,,,,100,3.7506,space,0,5.3091,0,12,12,12,1,2,only_sub_right.png,3,RandomDot7.png,No answer,20,,,1.0781,,,,,,,,,,
,,,,,,,,,,,,,,,,,,,,,,,,,,,,,,,Kaoru,1,2024-06-01_01h12.12.802,interaction task chi,2021.2.3,Win32,60.97560976,,,,,,,,,,,,,,,,,小于,大于,,-0.26875,-0.488888889,1,0,0,LeftButton,"[""LeftButton""]",0,3.7902,space,1.2708,,,,,,,,,,,,,,0,13,13,13,1,2,only_sub_right.png,0,RandomDot21.png,No answer,21,,,,,,,,,,,,,
,,,,,,,,,,,,,,,,,,,,,,,,,,,,,,,Kaoru,1,2024-06-01_01h12.12.802,interaction task chi,2021.2.3,Win32,60.97560976,,,,,,,,,,,,,,,,,大于,小于,,0.308333397,-0.494444444,1,0,0,RightButton,"[""RightButton""]",,,,,,,,,,,,,,,,,,0,14,14,14,1,5,both_right.png,10,RandomDot42.png,RightButton,20,,,,,,,,,,,,,
,,,,,,,,,,,,,,,,,,,,,,,,,,,,,,,Kaoru,1,2024-06-01_01h12.12.802,interaction task chi,2021.2.3,Win32,60.97560976,,,,,,,,,,,,,,,,,大于,小于,,-0.280208302,-0.481481595,1,0,0,LeftButton,"[""LeftButton""]",,,,,,,,,,,,,100,2.8277,space,0,4.3632,0,15,15,15,1,2,only_sub_right.png,3,RandomDot10.png,No answer,19,,,1.373,,,,,,,,,,
,,,,,,,,,,,,,,,,,,,,,,,,,,,,,,,Kaoru,1,2024-06-01_01h12.12.802,interaction task chi,2021.2.3,Win32,60.97560976,,,,,,,,,,,,,,,,,小于,大于,,-0.353125,-0.511111111,1,0,0,LeftButton,"[""LeftButton""]",,,,,,,,100,3.2643,space,0,10.7421,,,,,,0,16,16,16,1,3,only_sub_wrong.png,2,RandomDot15.png,No answer,20,1.0903,,,,,,,,,,,,
,,,,,,,,,,,,,,,,,,,,,,,,,,,,,,,Kaoru,1,2024-06-01_01h12.12.802,interaction task chi,2021.2.3,Win32,60.97560976,,,,,,,,,,,,,,,,,小于,大于,,-0.309375,-0.462963019,1,0,0,LeftButton,"[""LeftButton""]",,,,,,,,50,1.7869,space,20,3.5692,,,,,,0,17,17,17,1,1,both_wrong.png,2,RandomDot24.png,No answer,21,0.6561,,,,,,,,,,,,
,,,,,,,,,,,,,,,,,,,,,,,,,,,,,,,Kaoru,1,2024-06-01_01h12.12.802,interaction task chi,2021.2.3,Win32,60.97560976,,,,,,,,,,,,,,,,,小于,大于,,0.255208397,-0.490740797,1,0,0,RightButton,"[""RightButton""]",,,,,,,,,,,,,,,,,,0,18,18,18,1,0,both_right.png,0,RandomDot38.png,No answer,21,,,,,,,,,,,,,
,,,,,,,,,,,,,,,,,,,,,,,,,,,,,,,Kaoru,1,2024-06-01_01h12.12.802,interaction task chi,2021.2.3,Win32,60.97560976,,,,,,,,,,,,,,,,,大于,小于,,0.263541698,-0.505555556,1,0,0,RightButton,"[""RightButton""]",,,,,,,,,,,,,49.15825237,2.4653,space,49.68434343,3.5005,0,19,19,19,1,1,both_wrong.png,3,RandomDot13.png,No answer,21,,,0.8957,,,,,,,,,,
,,,,,,,,,,,,,,,,,,,,,,,,,,,,,,,Kaoru,1,2024-06-01_01h12.12.802,interaction task chi,2021.2.3,Win32,60.97560976,,,,,,,,,,,,,,,,,小于,大于,,0.301041698,-0.5,1,0,0,RightButton,"[""RightButton""]",,,,,2.484375,3.6791,space,,,,,,,,,,,0,20,20,20,1,1,both_wrong.png,1,RandomDot14.png,No answer,20,,0.967,,,,,,,,,,,
,,,,,,,,,,,,,,,,,,,,,,,,,,,,,,,Kaoru,1,2024-06-01_01h12.12.802,interaction task chi,2021.2.3,Win32,60.97560976,,,,,,,,,,,,,,,,,大于,小于,,-0.252083302,-0.5,1,0,0,LeftButton,"[""LeftButton""]",0,2.4421,space,1.0936,,,,,,,,,,,,,,0,21,21,21,1,2,only_sub_right.png,0,RandomDot18.png,No answer,21,,,,,,,,,,,,,
,,,,,,,,,,,,,,,,,,,,,,,,,,,,,,,Kaoru,1,2024-06-01_01h12.12.802,interaction task chi,2021.2.3,Win32,60.97560976,,,,,,,,,,,,,,,,,小于,大于,,0.261458397,-0.511111111,1,0,0,RightButton,"[""RightButton""]",,,,,,,,0,2.7718,space,0,4.2094,,,,,,0,22,22,22,1,2,only_sub_right.png,2,RandomDot22.png,No answer,20,1.74,,,,,,,,,,,,
,,,,,,,,,,,,,,,,,,,,,,,,,,,,,,,Kaoru,1,2024-06-01_01h12.12.802,interaction task chi,2021.2.3,Win32,60.97560976,,,,,,,,,,,,,,,,,大于,小于,,-0.277083302,-0.498148261,1,0,0,LeftButton,"[""LeftButton""]",,,,,,,,,,,,,,,,,,0,23,23,23,1,4,both_right.png,10,RandomDot41.png,LeftButton,5,,,,,,,,,,,,,
,,,,,,,,,,,,,,,,,,,,,,,,,,,,,,,Kaoru,1,2024-06-01_01h12.12.802,interaction task chi,2021.2.3,Win32,60.97560976,,,,,,,,,,,,,,,,,大于,小于,,0.302083397,-0.490740797,1,0,0,RightButton,"[""RightButton""]",50,3.0195,space,1.2925,,,,,,,,,,,,,,0,24,24,24,1,1,both_wrong.png,0,RandomDot16.png,No answer,19,,,,,,,,,,,,,
,,,,,,,,,,,,,,,,,,,,,,,,,,,,,,,Kaoru,1,2024-06-01_01h12.12.802,interaction task chi,2021.2.3,Win32,60.97560976,,,,,,,,,,,,,,,,,小于,大于,,0.328125,-0.494444444,1,0,0,RightButton,"[""RightButton""]",,,,,0,3.4332,space,,,,,,,,,,,0,25,25,25,1,2,only_sub_right.png,1,RandomDot38.png,No answer,19,,1.2682,,,,,,,,,,,
,,,,,,,,,,,,,,,,,,,,,,,,,,,,,,,Kaoru,1,2024-06-01_01h12.12.802,interaction task chi,2021.2.3,Win32,60.97560976,,,,,,,,,,,,,,,,,大于,小于,,0.329166698,-0.496296353,1,0,0,RightButton,"[""RightButton""]",,,,,0.026041746,2.6162,space,,,,,,,,,,,0,26,26,26,1,2,only_sub_right.png,1,RandomDot32.png,No answer,19,,1.7328,,,,,,,,,,,
,,,,,,,,,,,,,,,,,,,,,,,,,,,,,,,Kaoru,1,2024-06-01_01h12.12.802,interaction task chi,2021.2.3,Win32,60.97560976,,,,,,,,,,,,,,,,,大于,小于,,0.270833397,-0.531481595,1,0,0,RightButton,"[""RightButton""]",,,,,,,,0,2.3148,space,6,4.7789,,,,,,0,27,27,27,1,2,only_sub_right.png,2,RandomDot36.png,No answer,21,1.4622,,,,,,,,,,,,
,,,,,,,,,,,,,,,,,,,,,,,,,,,,,,,Kaoru,1,2024-06-01_01h12.12.802,interaction task chi,2021.2.3,Win32,60.97560976,,,,,,,,,,,,,,,,,大于,小于,,0.267708397,-0.518518575,1,0,0,RightButton,"[""RightButton""]",,,,,,,,,,,,,100,2.3831,space,0,5.1645,0,28,28,28,1,2,only_sub_right.png,3,RandomDot26.png,No answer,20,,,1.6072,,,,,,,,,,
,,,,,,,,,,,,,,,,,,,,,,,,,,,,,,,Kaoru,1,2024-06-01_01h12.12.802,interaction task chi,2021.2.3,Win32,60.97560976,,,,,,,,,,,,,,,,,小于,大于,,0.277083397,-0.533333333,1,0,0,RightButton,"[""RightButton""]",,,,,,,,100,4.6748,space,50,7.7432,,,,,,0,29,29,29,1,3,only_sub_wrong.png,2,RandomDot31.png,No answer,19,1.3501,,,,,,,,,,,,
,,,,,,,,,,,,,,,,,,,,,,,,,,,,,,,Kaoru,1,2024-06-01_01h12.12.802,interaction task chi,2021.2.3,Win32,60.97560976,,,,,,,,,,,,,,,,,小于,大于,,-0.24375,-0.540740797,1,0,0,LeftButton,"[""LeftButton""]",,,,,4.989583492,2.0176,space,,,,,,,,,,,0,30,30,30,1,3,only_sub_wrong.png,1,RandomDot15.png,No answer,21,,1.1926,,,,,,,,,,,
,,,,,,,,,,,,,,,,,,,,,,,,,,,,,,,Kaoru,1,2024-06-01_01h12.12.802,interaction task chi,2021.2.3,Win32,60.97560976,,,,,,,,,,,,,,,,,大于,小于,,0.320833397,-0.488888889,1,0,0,RightButton,"[""RightButton""]",100,3.9419,space,2.6609,,,,,,,,,,,,,,0,31,31,31,1,3,only_sub_wrong.png,0,RandomDot15.png,No answer,20,,,,,,,,,,,,,
,,,,,,,,,,,,,,,,,,,,,,,,,,,,,,,Kaoru,1,2024-06-01_01h12.12.802,interaction task chi,2021.2.3,Win32,60.97560976,,,,,,,,,,,,,,,,,大于,小于,,-0.316666651,-0.540740797,1,0,0,LeftButton,"[""LeftButton""]",0,2.4609,space,1.219,,,,,,,,,,,,,,0,32,32,32,1,2,only_sub_right.png,0,RandomDot8.png,No answer,20,,,,,,,,,,,,,
,,,,,,,,,,,,,,,,,,,,,,,,,,,,,,,Kaoru,1,2024-06-01_01h12.12.802,interaction task chi,2021.2.3,Win32,60.97560976,,,,,,,,,,,,,,,,,大于,小于,,0.307291698,-0.48703715,1,0,0,RightButton,"[""RightButton""]",,,,,,,,50,1.8139,space,23,4.6435,,,,,,0,33,33,33,1,1,both_wrong.png,2,RandomDot1.png,No answer,21,1.2774,,,,,,,,,,,,
,,,,,,,,,,,,,,,,,,,,,,,,,,,,,,,Kaoru,1,2024-06-01_01h12.12.802,interaction task chi,2021.2.3,Win32,60.97560976,,,,,,,,,,,,,,,,,小于,大于,,0.280208397,-0.48703715,1,0,0,RightButton,"[""RightButton""]",,,,,5,2.3566,space,,,,,,,,,,,0,34,34,34,1,3,only_sub_wrong.png,1,RandomDot40.png,No answer,19,,1.3257,,,,,,,,,,,
,,,,,,,,,,,,,,,,,,,,,,,,,,,,,,,Kaoru,1,2024-06-01_01h12.12.802,interaction task chi,2021.2.3,Win32,60.97560976,,,,,,,,,,,,,,,,,大于,小于,,0.305208397,-0.468518575,1,0,0,RightButton,"[""RightButton""]",,,,,,,,100,1.8792,space,51,2.7665,,,,,,0,35,35,35,1,3,only_sub_wrong.png,2,RandomDot38.png,No answer,21,0.9902,,,,,,,,,,,,
,,,,,,,,,,,,,,,,,,,,,,,,,,,,,,,Kaoru,1,2024-06-01_01h12.12.802,interaction task chi,2021.2.3,Win32,60.97560976,,,,,,,,,,,,,,,,,大于,小于,,-0.284375,-0.527777778,1,0,0,LeftButton,"[""LeftButton""]",50,1.845,space,1.0325,,,,,,,,,,,,,,0,36,36,36,1,1,both_wrong.png,0,RandomDot32.png,No answer,19,,,,,,,,,,,,,
,,,,,,,,,,,,,,,,,,,,,,,,,,,,,,,Kaoru,1,2024-06-01_01h12.12.802,interaction task chi,2021.2.3,Win32,60.97560976,,,,,,,,,,,,,,,,,小于,大于,,-0.335416651,-0.531481595,1,0,0,LeftButton,"[""LeftButton""]",100,2.3241,space,1.2504,,,,,,,,,,,,,,0,37,37,37,1,3,only_sub_wrong.png,0,RandomDot16.png,No answer,21,,,,,,,,,,,,,
,,,,,,,,,,,,,,,,,,,,,,,,,,,,,,,Kaoru,1,2024-06-01_01h12.12.802,interaction task chi,2021.2.3,Win32,60.97560976,,,,,,,,,,,,,,,,,小于,大于,,0.3,-0.511111111,1,0,0,RightButton,"[""RightButton""]",,,,,,,,,,,,,,,,,,0,38,38,38,1,0,both_right.png,2,RandomDot25.png,No answer,19,,,,,,,,,,,,,
,,,,,,,,,,,,,,,,,,,,,,,,,,,,,,,Kaoru,1,2024-06-01_01h12.12.802,interaction task chi,2021.2.3,Win32,60.97560976,,,,,,,,,,,,,,,,,小于,大于,,0.279166698,-0.514814928,1,0,0,RightButton,"[""RightButton""]",,,,,4.973958492,1.8852,space,,,,,,,,,,,0,39,39,39,1,3,only_sub_wrong.png,1,RandomDot22.png,No answer,20,,1.1503,,,,,,,,,,,
,,,,,,,,,,,,,,,,,,,,,,,,,,,,,,,Kaoru,1,2024-06-01_01h12.12.802,interaction task chi,2021.2.3,Win32,60.97560976,,,,,,,,,,,,,,,,,大于,小于,,-0.304166651,-0.505555556,1,0,0,LeftButton,"[""LeftButton""]",,,,,,,,,,,,,49.579131,3.8668,space,49.47390893,5.3307,0,40,40,40,1,3,only_sub_wrong.png,3,RandomDot17.png,No answer,19,,,1.4496,,,,,,,,,,
,,,,,,,,,,,,,,,,,,,,,,,,,,,,,,,Kaoru,1,2024-06-01_01h12.12.802,interaction task chi,2021.2.3,Win32,60.97560976,,,,,,,,,,,,,,,,,大于,小于,,-0.270833302,-0.501851908,1,0,0,LeftButton,"[""LeftButton""]",,,,,,,,0,2.8312,space,0,4.3689,,,,,,0,41,41,41,1,2,only_sub_right.png,2,RandomDot20.png,No answer,20,0.9977,,,,,,,,,,,,
,,,,,,,,,,,,,,,,,,,,,,,,,,,,,,,Kaoru,1,2024-06-01_01h12.12.802,interaction task chi,2021.2.3,Win32,60.97560976,,,,,,,,,,,,,,,,,,,,,,,,,,,,,,,,,,,,,,,,,,,,,,,,,,,,,,,,,,6.993750381,7.8855,6.050000191,9.6257,5.981250381,10.7402,2.025000095,12.808,space,17.2133